Folder: complexlm/data/rawdata

File: 12April2023_Copper_RT_vaccookeddata.csv
Type of Test:,VdP AC Hall
Measurement Date:,12 April 2023
Sample Name:,1000 angstrom copper on SiO2 on Si
Created by:,William Ryan
Composition:,100 nm copper on thermal SiO2 on Si
Creation Date,27 March 2022
Thickness (nm),1E-5
Width (nm),0.8
Current Control:,Smart Sweep
Av. Temperature (K), B field freq. (Hz), Av. Bfield magnitude (T), Carrier Type (-1 = electron; 1 = hole), Carrier Density (1/cm^3), Sheet Carrier Density (1/cm^2), Mobility (cm^2 / V s), Hall Coefficient (Ohm m / T), Consistency Warning, Consistency Error, Hall Coef. D (Ohm m / T), Hall Coef. E (Ohm m / T), R_D (Ohms), Theta_D (rad), R_E (Ohms), Theta_E (rad), Av Current_D (A), Av. Current_E (A), Av B mag D (T), Av B mag E (T), Resistivity (Ohm cm)
Type of Test:,VdP AC Hall
Measurement Date:,12 April 2023
Sample Name:,1000 angstrom copper on SiO2 on Si
Created by:,William Ryan
Composition:,100 nm copper on thermal SiO2 on Si
Creation Date,27 March 2022
Thickness (nm),1E-5
Width (nm),0.8
Current Control:,Smart Sweep
Av. Temperature (K), B field freq. (Hz), Av. Bfield magnitude (T), Carrier Type (-1 = electron; 1 = hole), Carrier Density (1/cm^3), Sheet Carrier Density (1/cm^2), Mobility (cm^2 / V s), Hall Coefficient (Ohm m / T), Consistency Warning, Consistency Error, Hall Coef. D (Ohm m / T), Hall Coef. E (Ohm m / T), R_D (Ohms), Theta_D (rad), R_E (Ohms), Theta_E (rad), Av Current_D (A), Av. Current_E (A), Av B mag D (T), Av B mag E (T), Resistivity (Ohm cm)
291.719, 0.17, 0.964022, -1, 6.839939E+22, 6.839939E+17, 35.8356, 9.125095E-11, 1, 1, 1.352124E-10, 4.728953E-11, 0.001302, 0.757364, 0.000455, 0.517644, 0.006057, 0.006057, 0.963227, 0.963085, 2.54638E-6
291.719, 0.17, 0.964022, -1, 3.54862E+22, 3.54862E+17, 69.0728, 1.758856E-10, 1, 1, 3.04392E-10, 4.737914E-11, 0.002931, -1.238861, 0.000458, 0.519027, 0.004782, 0.004782, 0.962929, 0.965678, 2.54638E-6
291.719, 0.17, 0.964022, -1, 1.143264E+22, 1.143264E+17, 214.398, 5.459375E-10, 1, 1, 1.047791E-9, 4.408443E-11, 0.010115, -0.837055, 0.000424, 0.536529, 0.003507, 0.003506, 0.965361, 0.96207, 2.54638E-6
291.719, 0.17, 0.964022, 1, 3.014847E+22, 3.014847E+17, 81.302, 2.070257E-10, 1, 1, 3.716016E-10, 4.244984E-11, 0.003578, -2.940595, 0.00041, 0.551027, 0.002231, 0.002231, 0.962731, 0.965734, 2.54638E-6
291.719, 0.17, 0.964022, -1, 8.587674E+21, 8.587674E+16, 285.424, 7.267986E-10, 1, 1, 1.403103E-9, 5.049417E-11, 0.013547, 1.384697, 0.000487, 0.603969, 0.000957, 0.000957, 0.965516, 0.963639, 2.54638E-6
291.719, 0.17, 0.964022, 1, 2.238562E+21, 2.238562E+16, 1094.96, 2.788178E-9, 1, 1, 5.534426E-9, 4.193005E-11, 0.053352, 2.406296, 0.000404, 0.520375, -0.000957, -0.000957, 0.963994, 0.964413, 2.54638E-6
291.719, 0.17, 0.964022, -1, 1.41368E+22, 1.41368E+17, 173.387, 4.41508E-10, 1, 1, 8.386991E-10, 4.431694E-11, 0.008092, -1.057515, 0.000428, 0.466151, -0.002231, -0.002231, 0.964797, 0.965554, 2.54638E-6
291.719, 0.17, 0.964022, 1, 9.365208E+21, 9.365208E+16, 261.727, 6.664571E-10, 1, 1, 1.284652E-9, 4.826188E-11, 0.01235, 1.933617, 0.000465, 0.572496, -0.003507, -0.003506, 0.961318, 0.963767, 2.54638E-6
291.719, 0.17, 0.964022, 1, 1.862664E+22, 1.862664E+17, 131.593, 3.35085E-10, 1, 1, 6.247794E-10, 4.539065E-11, 0.006021, 2.14506, 0.000437, 0.552115, -0.004782, -0.004782, 0.963695, 0.962083, 2.54638E-6
291.719, 0.17, 0.964022, -1, 1.123657E+23, 1.123657E+18, 21.8139, 5.554639E-11, 1, 1, 6.303943E-11, 4.805334E-11, 0.000607, -0.744539, 0.000463, 0.526607, -0.006057, -0.006057, 0.96316, 0.964536, 2.54638E-6
291.726, 0.37, 0.467029, -1, 9.225093E+22, 9.225093E+17, 26.5703, 6.765796E-11, 1, 1, 7.163169E-11, 6.368422E-11, 0.000335, -2.149419, 0.000297, -0.011888, 0.005419, 0.005419, 0.467107, 0.466999, 2.54638E-6
291.726, 0.37, 0.467029, -1, 1.188884E+23, 1.188884E+18, 20.6171, 5.249891E-11, 1, 1, 4.427147E-11, 6.072635E-11, 0.000207, -1.832659, 0.000284, 0.086813, 0.004144, 0.004144, 0.467883, 0.467044, 2.54638E-6
291.726, 0.37, 0.467029, -1, 3.552897E+22, 3.552897E+17, 68.9896, 1.756738E-10, 1, 1, 2.859067E-10, 6.544091E-11, 0.001329, -0.785678, 0.000306, 0.103316, 0.002869, 0.002869, 0.464685, 0.466981, 2.54638E-6
291.726, 0.37, 0.467029, -1, 6.525235E+21, 6.525235E+16, 375.639, 9.565187E-10, 1, 1, 1.856027E-9, 5.70107E-11, 0.008671, -0.728163, 0.000265, -0.074421, 0.001594, 0.001594, 0.467195, 0.465144, 2.54638E-6
291.726, 0.37, 0.467029, 1, 1.170181E+16, 1.170181E+11, 2.094659E+8, 0.000533, 1, 1, 0.001063, 4.015082E-6, 4960.72, -2.378855, 18.7509, -0.659813, 3.5E-9, 3E-9, 0.466784, 0.46701, 2.54638E-6
291.726, 0.37, 0.467029, -1, 4.538106E+21, 4.538106E+16, 540.122, 1.375356E-9, 1, 1, 2.696685E-9, 5.402688E-11, 0.012576, 0.230162, 0.000252, 0.295806, -0.001594, -0.001594, 0.466344, 0.466999, 2.54638E-6
291.726, 0.37, 0.467029, -1, 1.933999E+21, 1.933999E+16, 1267.39, 3.227256E-9, 1, 1, 6.393394E-9, 6.11175E-11, 0.029856, 1.573758, 0.000285, 0.036495, -0.002869, -0.002869, 0.466976, 0.467088, 2.54638E-6
291.726, 0.37, 0.467029, -1, 5.752989E+21, 5.752989E+16, 426.062, 1.084916E-9, 1, 1, 2.110443E-9, 5.938883E-11, 0.009908, 0.023836, 0.000278, 0.044521, -0.004144, -0.004144, 0.469456, 0.468748, 2.54638E-6
291.726, 0.37, 0.467029, 1, 1.443804E+22, 1.443804E+17, 169.769, 4.322962E-10, 1, 1, 8.049842E-10, 5.960819E-11, 0.00376, -2.271921, 0.000279, 0.005575, -0.005419, -0.005419, 0.467053, 0.46829, 2.54638E-6
291.744, 0.57, 0.286546, -1, 9.817754E+22, 9.817754E+17, 24.9663, 6.35737E-11, 0, 0, 6.28201E-11, 6.432731E-11, 0.000181, -0.20713, 0.000184, -0.166623, 0.006057, 0.006057, 0.287919, 0.285806, 2.54638E-6
291.744, 0.57, 0.286546, -1, 9.049664E+22, 9.049664E+17, 27.0853, 6.896952E-11, 0, 0, 6.839858E-11, 6.954046E-11, 0.000195, -0.151536, 0.0002, -0.173325, 0.004782, 0.004782, 0.285604, 0.287307, 2.54638E-6
291.744, 0.57, 0.286546, -1, 1.029904E+23, 1.029904E+18, 23.7996, 6.060285E-11, 1, 1, 5.727064E-11, 6.393505E-11, 0.000164, -0.183335, 0.000183, -0.188945, 0.003506, 0.003507, 0.286794, 0.285713, 2.54638E-6
291.744, 0.57, 0.286546, -1, 9.20735E+22, 9.20735E+17, 26.6215, 6.778834E-11, 0, 0, 6.804846E-11, 6.752822E-11, 0.000195, -0.113188, 0.000193, -0.106688, 0.002231, 0.002231, 0.285953, 0.286433, 2.54638E-6
291.744, 0.57, 0.286546, -1, 1.000896E+23, 1.000896E+18, 24.4894, 6.235922E-11, 1, 1, 8.375515E-11, 4.096328E-11, 0.00024, -0.211834, 0.000117, -0.047998, 0.000957, 0.000957, 0.28663, 0.285828, 2.54638E-6
291.744, 0.57, 0.286546, -1, 9.047122E+22, 9.047122E+17, 27.0929, 6.898889E-11, 0, 0, 6.81591E-11, 6.981869E-11, 0.000195, -0.211121, 0.000201, 0.304081, -0.000957, -0.000957, 0.286054, 0.287392, 2.54638E-6
291.744, 0.57, 0.286546, -1, 1.034887E+23, 1.034887E+18, 23.685, 6.031102E-11, 1, 1, 4.712666E-11, 7.349539E-11, 0.000135, -0.109603, 0.000211, -0.201885, -0.002231, -0.002231, 0.286625, 0.286668, 2.54638E-6
291.744, 0.57, 0.286546, 1, 2.614983E+21, 2.614983E+16, 937.341, 2.386826E-9, 1, 1, 4.712386E-9, 6.126646E-11, 0.013546, 2.602216, 0.000176, -0.028556, -0.003507, -0.003506, 0.287447, 0.287256, 2.54638E-6
291.744, 0.57, 0.286546, -1, 2.556881E+21, 2.556881E+16, 958.641, 2.441064E-9, 1, 1, 4.816585E-9, 6.554262E-11, 0.01381, -1.302846, 0.000188, -0.136963, -0.004782, -0.004782, 0.286709, 0.286564, 2.54638E-6
291.744, 0.57, 0.286546, -1, 1.242009E+21, 1.242009E+16, 1973.52, 5.025332E-9, 1, 1, 9.990632E-9, 6.003216E-11, 0.028671, 0.068316, 0.000171, -0.18859, -0.006057, -0.006057, 0.286977, 0.285565, 2.54638E-6